Folder: SolidHydrogen/data/xrd

File: rs_1.42_xrd.dat
2.29256 0.060215
2.26987 0.120216
2.24764 0.370659
2.22583 5.58136
2.20444 1.00783
2.18346 0.198852
2.16288 0.0850871
2.14268 0.0494733
2.12285 0.0342622
2.10339 0.0267327
2.08428 0.0228353
2.06552 0.0210163
2.04709 0.0206705
2.02899 0.0216967
2.01121 0.0244653
1.99373 0.0301949
1.97656 0.042493
1.95968 0.074697
1.94309 0.210079
1.92677 3.13599
1.91073 0.526976
1.89496 0.116957
1.87944 0.0596123
1.86417 0.0430814
1.84915 0.0378263
1.83437 0.0375732
1.81983 0.0407666
1.80552 0.0476142
1.79142 0.0598567
1.77755 0.082129
1.76389 0.127322
1.75044 0.241119
1.7372 0.689283
1.72415 8.02477
1.7113 2.54995
1.69863 0.462575
1.68616 0.205029
1.67387 0.131527
1.66175 0.10616
1.64981 0.101468
1.63804 0.111192
1.62644 0.137673
1.615 0.193291
1.60372 0.317244
1.5926 0.664531
1.58163 2.35501
1.57081 60.9827
1.56014 3.1676
1.54961 0.769817
1.53923 0.346313
1.52898 0.202056
1.51887 0.136936
1.50889 0.102772
1.49904 0.0833485
1.48932 0.0720288
1.47973 0.0657555
1.47026 0.063052
1.46091 0.0632595
1.45168 0.0662397
1.44256 0.0722969
1.43356 0.0822594
1.42467 0.0977602
1.41589 0.121905
1.40722 0.160864
1.39865 0.228088
1.39019 0.357359
1.38183 0.654535
1.37357 1.60618
1.36541 8.63469
1.35734 38.9239
1.34937 2.81504
1.3415 0.919166
1.33371 0.459515
1.32602 0.284449
1.31841 0.204365
1.31089 0.169435
1.30346 0.170173
1.29611 0.238908
1.28884 0.700031
1.28166 15.1282
1.27455 0.614499
1.26752 0.201109
1.26057 0.12075
1.2537 0.0968104
1.2469 0.0951991
1.24017 0.113965
1.23352 0.173589
1.22694 0.384677
1.22043 2.08278
1.21398 6.81138
1.20761 0.579975
1.2013 0.20626
1.19506 0.113013
1.18888 0.0781656
1.18277 0.0650505
1.17672 0.067322
1.17073 0.0997387
1.1648 0.323422
1.15893 5.14733
1.15312 0.223805
1.14737 0.0752203
1.14168 0.0432681
1.13604 0.0315591
1.13046 0.0267632
1.12493 0.0264915
1.11946 0.0349389
1.11404 0.111433
1.10867 0.484805
1.10336 0.04692
1.09809 0.024979
1.09288 0.020695
1.08771 0.0211715
1.0826 0.0260395
1.07753 0.0416134
1.07251 0.112774
1.06753 1.95974
1.06261 0.225785
1.05772 0.0575866
1.05289 0.0337035
1.04809 0.0295188
1.04334 0.0348604
1.03864 0.0564093
1.03397 0.149031
1.02935 1.67175
1.02477 0.548963
1.02023 0.0984796
1.01573 0.0420728
1.01127 0.0247506
1.00685 0.0172256
1.00247 0.0133034
0.998123 0.011039
0.993817 0.00967385
0.989547 0.00887938
0.985315 0.00852623
0.981119 0.00862469
0.976958 0.00938376
0.972833 0.0115692
0.968743 0.0186151
0.964687 0.0637293
0.960665 0.543195
0.956677 0.0360194
0.952722 0.0183808
0.9488 0.0171442
0.94491 0.0220817
0.941052 0.0387457
0.937225 0.114853
0.93343 2.08342
0.929666 0.236397
0.925931 0.0550682
0.922227 0.0285638
0.918553 0.0227453
0.914908 0.027164
0.911292 0.0581325
0.907705 0.56454
0.904146 0.214387
0.900614 0.0411693
0.897111 0.0209454
0.893635 0.0165624
0.890186 0.0192079
0.886763 0.0395182
0.883367 0.400027
0.879997 0.126418
0.876653 0.027152
0.873334 0.0154199
0.870041 0.0136957
0.866772 0.0180395
0.863528 0.0450657
0.860308 0.91989
0.857113 0.0691384
0.853941 0.0218334
0.850793 0.0160741
0.847668 0.0189626
0.844566 0.0355581
0.841487 0.159367
0.838431 0.922808
0.835396 0.0637872
0.832384 0.0247643
0.829394 0.0177337
0.826425 0.0208752
0.823477 0.0486157
0.820551 0.73092
0.817645 0.107362
0.81476 0.0245244
0.811896 0.0121658
0.809052 0.00820623
0.806228 0.00656724
0.803423 0.00591676
0.800638 0.00589585
0.797873 0.00652159
0.795127 0.00820805
0.792399 0.0124574
0.789691 0.0261972
0.787001 0.122487
0.78433 0.720615
0.781677 0.0489786
0.779041 0.0185459
0.776424 0.0129009
0.773824 0.0152818
0.771242 0.0462695
0.768677 0.417436
0.76613 0.0261633
0.763599 0.0130522
0.761085 0.0133376
0.758588 0.0235886
0.756107 0.101211
0.753643 0.702273
0.751194 0.0440166
0.748762 0.0161243
0.746346 0.0108445
0.743945 0.0131087
0.74156 0.0539125
0.73919 0.116384
0.736835 0.0135385
0.734496 0.00615828
0.732171 0.0041639
0.729861 0.00338438
0.727566 0.00309215
0.725286 0.00312594
0.723019 0.00354945
0.720767 0.00475982
0.71853 0.00849042
0.716306 0.0284901
0.714096 0.685226
0.7119 0.0277057
0.709717 0.00897117
0.707548 0.00632635
0.705392 0.00887106
0.703249 0.0477498
0.70112 0.0586924
0.699004 0.00818441
0.6969 0.00371864
0.694809 0.00243517
0.692731 0.00188627
0.690665 0.00160976
0.688612 0.00147662
0.686571 0.00146455
0.684542 0.00166218
0.682526 0.00270573
0.680521 0.019832
0.678528 0.0077112
0.676547 0.00225585
0.674577 0.00183281
0.67262 0.00254116
0.670673 0.0102158
0.668738 0.0249131
0.666814 0.00309081
0.664902 0.00176103
0.663 0.00180414
0.66111 0.0043477
0.65923 0.041372
0.657361 0.00267047
0.655503 0.00135311
0.653655 0.00120667
0.651818 0.00203161
0.649991 0.0321885
0.648175 0.00181671
0.646369 0.000932638
0.644573 0.000783413
0.642787 0.000934814
0.641011 0.00910931
0.639245 0.000915234
0.637489 0.000620346
0.635743 0.000567145
0.634006 0.000614661
0.632279 0.00342141
0.630561 0.000595144
0.628853 0.000492148
0.627154 0.000473717
0.625464 0.00051267
0.623784 0.00214059
0.622113 0.000481448
0.620451 0.000426261
0.618797 0.000409281
0.617153 0.000398908
0.615517 0.000390849
0.613891 0.000383994
0.612273 0.000377979
0.610663 0.000372716
0.609062 0.000368318
0.60747 0.00036521
0.605886 0.000364636
0.60431 0.00037098
0.602743 0.000408814
0.601184 0.0010079
0.599633 0.000635374
0.59809 0.000386249
0.596555 0.000365606
0.595028 0.000413019
0.593509 0.00248988
0.591998 0.000428278
0.590495 0.000340807
0.588999 0.000326264
0.587511 0.000352175
0.586031 0.000495823
0.584558 0.000312368
0.583093 0.000299388
0.581635 0.000296275
0.580185 0.000348841
0.578742 0.000298181
0.577306 0.000282261
0.576162 0.000278084

File: rs_1.43_xrd.dat
2.29256 0.0947054
2.26987 0.248517
2.24764 1.7972
2.22583 2.28525
2.20444 0.272846
2.18346 0.101527
2.16288 0.0549921
2.14268 0.0363303
2.12285 0.0273418
2.10339 0.0226738
2.08428 0.020348
2.06552 0.019578
2.04709 0.0201465
2.02899 0.0222879
2.01121 0.0269429
1.99373 0.0368958
1.97656 0.0619401
1.95968 0.156295
1.94309 1.41444
1.92677 0.76663
1.91073 0.12863
1.89496 0.0596316
1.87944 0.0408394
1.86417 0.0345957
1.84915 0.0334931
1.83437 0.0356348
1.81983 0.0409559
1.80552 0.050747
1.79142 0.0686287
1.77755 0.104643
1.76389 0.19365
1.75044 0.529186
1.7372 5.10394
1.72415 2.59057
1.7113 0.4205
1.69863 0.181354
1.68616 0.115331
1.67387 0.0929452
1.66175 0.0889574
1.64981 0.0977008
1.63804 0.121254
1.62644 0.170675
1.615 0.281119
1.60372 0.592867
1.5926 2.14193
1.58163 56.9605
1.57081 2.63902
1.56014 0.657482
1.54961 0.298827
1.53923 0.175654
1.52898 0.119895
1.51887 0.0906723
1.50889 0.0741577
1.49904 0.0646789
1.48932 0.0596304
1.47973 0.0577703
1.47026 0.0585734
1.46091 0.0619859
1.45168 0.0683757
1.44256 0.0786354
1.43356 0.094494
1.42467 0.119249
1.41589 0.159542
1.40722 0.230157
1.39865 0.369484
1.39019 0.704412
1.38183 1.88174
1.37357 13.8204
1.36541 17.2402
1.35734 2.04791
1.34937 0.744948
1.3415 0.389874
1.33371 0.247771
1.32602 0.18152
1.31841 0.153725
1.31089 0.160317
1.30346 0.247453
1.29611 1.00327
1.28884 4.31465
1.28166 0.357207
1.27455 0.148382
1.26752 0.0996365
1.26057 0.0862893
1.2537 0.0909425
1.2469 0.117545
1.24017 0.198623
1.23352 0.533337
1.22694 5.87457
1.22043 2.05323
1.21398 0.361214
1.20761 0.153402
1.2013 0.0912686
1.19506 0.0667173
1.18888 0.0587402
1.18277 0.0664759
1.17672 0.119752
1.17073 0.736732
1.1648 0.809419
1.15893 0.114629
1.15312 0.0513879
1.14737 0.033474
1.14168 0.0263822
1.13604 0.0240694
1.13046 0.0267415
1.12493 0.0470468
1.11946 0.478265
1.11404 0.108555
1.10867 0.030881
1.10336 0.0207167
1.09809 0.0188032
1.09288 0.020637
1.08771 0.0280094
1.0826 0.0544877
1.07753 0.263227
1.07251 0.914625
1.06753 0.0828815
1.06261 0.0361442
1.05772 0.0270224
1.05289 0.0281303
1.04809 0.0393496
1.04334 0.0807107
1.03864 0.37088
1.03397 2.53617
1.02935 0.155695
1.02477 0.0517343
1.02023 0.0272796
1.01573 0.0178604
1.01127 0.0132651
1.00685 0.010707
1.00247 0.00918219
0.998123 0.00827015
0.993817 0.0077923
0.989547 0.00770938
0.985315 0.00813118
0.981119 0.00950464
0.976958 0.0136244
0.972833 0.0327747
0.968743 0.610972
0.964687 0.0526637
0.960665 0.0184055
0.956677 0.0147051
0.952722 0.0170855
0.9488 0.0268188
0.94491 0.0649978
0.941052 0.51749
0.937225 0.404305
0.93343 0.0604752
0.929666 0.0274705
0.925931 0.0202607
0.922227 0.022342
0.918553 0.0413505
0.914908 0.234563
0.911292 0.400775
0.907705 0.047652
0.904146 0.0210817
0.900614 0.0153325
0.897111 0.0163631
0.893635 0.0293775
0.890186 0.184978
0.886763 0.187375
0.883367 0.0286262
0.879997 0.0146987
0.876653 0.012312
0.873334 0.0152681
0.870041 0.0340267
0.866772 0.452578
0.863528 0.0803762
0.860308 0.0211587
0.857113 0.0144291
0.853941 0.0160997
0.850793 0.0284365
0.847668 0.113125
0.844566 1.13661
0.841487 0.0607602
0.838431 0.0226401
0.835396 0.0162673
0.832384 0.0194398
0.829394 0.0452534
0.826425 0.618197
0.823477 0.113108
0.820551 0.0244849
0.817645 0.0118418
0.81476 0.00785467
0.811896 0.00621395
0.809052 0.00555705
0.806228 0.0055162
0.803423 0.00610057
0.800638 0.00771143
0.797873 0.0118363
0.795127 0.0255515
0.792399 0.130299
0.789691 0.502817
0.787001 0.0414129
0.78433 0.0163485
0.781677 0.0115883
0.779041 0.014085
0.776424 0.048243
0.773824 0.211719
0.771242 0.0198733
0.768677 0.0114988
0.76613 0.0130395
0.763599 0.0256807
0.761085 0.140088
0.758588 0.347694
0.756107 0.034433
0.753643 0.014
0.751194 0.010085
0.748762 0.0137814
0.746346 0.0877248
0.743945 0.0555881
0.74156 0.0101542
0.73919 0.00515861
0.736835 0.00365656
0.734496 0.00305499
0.732171 0.00285287
0.729861 0.00295298
0.727566 0.00346481
0.725286 0.00490766
0.723019 0.00977613
0.720767 0.0455867
0.71853 0.214924
0.716306 0.0167122
0.714096 0.0071166
0.7119 0.00612852
0.709717 0.0115911
0.707548 0.159817
0.705392 0.0240133
0.703249 0.00582237
0.70112 0.00304879
0.699004 0.00211895
0.6969 0.00169763
0.694809 0.00148808
0.692731 0.00140848
0.690665 0.00147244
0.688612 0.00188238
0.686571 0.00440547
0.684542 0.0821231
0.682526 0.0040513
0.680521 0.00198068
0.678528 0.00197241
0.676547 0.00374359
0.674577 0.0498776
0.67262 0.00734197
0.670673 0.0022637
0.668738 0.00173413
0.666814 0.00249382
0.664902 0.0169997
0.663 0.0080953
0.66111 0.00191712
0.65923 0.00128747
0.657361 0.00147319
0.655503 0.00613251
0.653655 0.00546255
0.651818 0.00124896
0.649991 0.000854734
0.648175 0.000851409
0.646369 0.00220589
0.644573 0.00227025
0.642787 0.000731224
0.641011 0.000587335
0.639245 0.000584953
0.637489 0.00116493
0.635743 0.0010078
0.634006 0.000521873
0.632279 0.00047662
0.630561 0.000509363
0.628853 0.00136671
0.627154 0.000760128
0.625464 0.000446276
0.623784 0.000401265
0.622113 0.000382675
0.620451 0.000371048
0.618797 0.000362242
0.617153 0.000354939
0.615517 0.000348626
0.613891 0.00034312
0.612273 0.000338459
0.610663 0.000335021
0.609062 0.000334205
0.60747 0.000342714
0.605886 0.000439504
0.60431 0.00073623
0.602743 0.00034677
0.601184 0.000326545
0.599633 0.000343178
0.59809 0.000766586
0.596555 0.000442028
0.595028 0.000315926
0.593509 0.000299409
0.591998 0.000306125
0.590495 0.000698439
0.588999 0.000292974
0.587511 0.000278973
0.586031 0.000277137
0.584558 0.000313261
0.583093 0.000309003
0.581635 0.000271539
0.580185 0.000274327
0.578742 0.000319752
0.577306 0.00196345
0.576162 0.000347427

File: rs_1.44_xrd.dat
2.29256 0.159988
2.26987 0.735827
2.24764 7.32662
2.22583 0.372168
2.20444 0.114905
2.18346 0.0574657
2.16288 0.0362541
2.14268 0.0264463
2.12285 0.0214251
2.10339 0.0188678
2.08428 0.0178563
2.06552 0.0180855
2.04709 0.0196688
2.02899 0.0232836
2.01121 0.0309573
1.99373 0.0494991
1.97656 0.112692
1.95968 0.686421
1.94309 1.24671
1.92677 0.140948
1.91073 0.0589695
1.89496 0.03854
1.87944 0.0318148
1.86417 0.0303092
1.84915 0.0318805
1.83437 0.0362929
1.81983 0.0445469
1.80552 0.0595917
1.79142 0.0895547
1.77755 0.161979
1.76389 0.421954
1.75044 3.3485
1.7372 2.94122
1.72415 0.409259
1.7113 0.169857
1.69863 0.106447
1.68616 0.0853329
1.67387 0.0816019
1.66175 0.0897239
1.64981 0.111562
1.63804 0.157361
1.62644 0.259801
1.615 0.549754
1.60372 2.00197
1.5926 53.4929
1.58163 2.38632
1.57081 0.599757
1.56014 0.273448
1.54961 0.161036
1.53923 0.110091
1.52898 0.0833966
1.51887 0.0683406
1.50889 0.059746
1.49904 0.0552385
1.48932 0.0536937
1.47973 0.0546506
1.47026 0.0580911
1.46091 0.0644053
1.45168 0.0745054
1.44256 0.0901546
1.43356 0.114743
1.42467 0.155198
1.41589 0.227277
1.40722 0.373246
1.39865 0.74051
1.39019 2.16695
1.38183 23.5864
1.37357 9.33075
1.36541 1.53213
1.35734 0.605178
1.34937 0.328962
1.3415 0.214065
1.33371 0.160013
1.32602 0.139076
1.31841 0.152521
1.31089 0.267179
1.30346 1.72786
1.29611 1.48463
1.28884 0.236573
1.28166 0.115408
1.27455 0.0834741
1.26752 0.0759175
1.26057 0.0837447
1.2537 0.114764
1.2469 0.213953
1.24017 0.726979
1.23352 19.0071
1.22694 0.855128
1.22043 0.224448
1.21398 0.109067
1.20761 0.0701693
1.2013 0.0548155
1.19506 0.052375
1.18888 0.0680057
1.18277 0.165149
1.17672 3.1759
1.17073 0.26925
1.1648 0.0709343
1.15893 0.0377698
1.15312 0.0265699
1.14737 0.0219624
1.14168 0.0210615
1.13604 0.0260224
1.13046 0.0677196
1.12493 0.666713
1.11946 0.0418882
1.11404 0.0204877
1.10867 0.0164385
1.10336 0.0164132
1.09809 0.0196635
1.09288 0.0305058
1.08771 0.0802992
1.0826 1.3627
1.07753 0.161137
1.07251 0.0420823
1.06753 0.0255008
1.06261 0.023143
1.05772 0.0283101
1.05289 0.0478141
1.04809 0.137151
1.04334 2.20781
1.03864 0.323358
1.03397 0.0685198
1.02935 0.0308301
1.02477 0.0186308
1.02023 0.0131962
1.01573 0.0103267
1.01127 0.00866408
1.00685 0.00767153
1.00247 0.00711973
0.998123 0.0069312
0.993817 0.00715361
0.989547 0.00805603
0.985315 0.0106442
0.981119 0.0202663
0.976958 0.127314
0.972833 0.116183
0.968743 0.0213239
0.964687 0.0137935
0.960665 0.0142938
0.956677 0.0202315
0.952722 0.0415802
0.9488 0.192044
0.94491 1.18795
0.941052 0.0784846
0.937225 0.0289846
0.93343 0.0189505
0.929666 0.0186401
0.925931 0.0293913
0.922227 0.110131
0.918553 1.0698
0.914908 0.0581915
0.911292 0.0213625
0.907705 0.0140388
0.904146 0.0135806
0.900614 0.0210061
0.897111 0.0878332
0.893635 0.339966
0.890186 0.0302379
0.886763 0.0136603
0.883367 0.0106881
0.879997 0.0123354
0.876653 0.0241269
0.873334 0.196573
0.870041 0.0990789
0.866772 0.0203326
0.863528 0.0129019
0.860308 0.0138073
0.857113 0.0231675
0.853941 0.0811343
0.850793 1.56753
0.847668 0.0636489
0.844566 0.021598
0.841487 0.014862
0.838431 0.0171451
0.835396 0.0378792
0.832384 0.425531
0.829394 0.118275
0.826425 0.0234929
0.823477 0.0111131
0.820551 0.00732888
0.817645 0.00580968
0.81476 0.00523232
0.811896 0.00525118
0.809052 0.00589114
0.806228 0.00757609
0.803423 0.0118645
0.800638 0.0262699
0.797873 0.14141
0.795127 0.442801
0.792399 0.0397747
0.789691 0.0159142
0.787001 0.0113556
0.78433 0.0141564
0.781677 0.054595
0.779041 0.146289
0.776424 0.0175974
0.773824 0.0109264
0.771242 0.0130284
0.768677 0.0275577
0.76613 0.188152
0.763599 0.21361
0.761085 0.0283145
0.758588 0.0124045
0.756107 0.00943367
0.753643 0.0143969
0.751194 0.148345
0.748762 0.0328763
0.746346 0.00798509
0.743945 0.00441703
0.74156 0.00326351
0.73919 0.00280235
0.736835 0.00268094
0.734496 0.00285264
0.732171 0.0034782
0.729861 0.00524627
0.727566 0.0118705
0.725286 0.0858167
0.723019 0.0797361
0.720767 0.0119882
0.71853 0.00623562
0.716306 0.00645418
0.714096 0.0169658
0.7119 0.337081
0.709717 0.0138156
0.707548 0.00454884
0.705392 0.00262126
0.703249 0.00190445
0.70112 0.00156969
0.699004 0.00141341
0.6969 0.00138919
0.694809 0.00156001
0.692731 0.00237057
0.690665 0.0097934
0.688612 0.0210448
0.686571 0.00294398
0.684542 0.00189348
0.682526 0.00226218
0.680521 0.00660828
0.678528 0.0604851
0.676547 0.00381668
0.674577 0.00188417
0.67262 0.00187001
0.670673 0.00423191
0.668738 0.0797671
0.666814 0.0036622
0.664902 0.00154769
0.663 0.00130843
0.66111 0.002249
0.65923 0.041197
0.657361 0.0022574
0.655503 0.00101105
0.653655 0.000827828
0.651818 0.00111781
0.649991 0.014601
0.648175 0.00106209
0.646369 0.000633152
0.644573 0.000569869
0.642787 0.000718129
0.641011 0.00566129
0.639245 0.000628596
0.637489 0.000486574
0.635743 0.000493071
0.634006 0.000787446
0.632279 0.00363219
0.630561 0.000543747
0.628853 0.00040991
0.627154 0.000373162
0.625464 0.000354989
0.623784 0.000343041
0.622113 0.000333901
0.620451 0.000326296
0.618797 0.000319653
0.617153 0.000313679
0.615517 0.000308215
0.613891 0.000303174
0.612273 0.000298542
0.610663 0.000294564
0.609062 0.000303389
0.60747 0.000287325
0.605886 0.000284949
0.60431 0.00028772
0.602743 0.000339795
0.601184 0.000439184
0.599633 0.000282306
0.59809 0.000269927
0.596555 0.000269051
0.595028 0.000384552
0.593509 0.000270659
0.591998 0.000256224
0.590495 0.000254621
0.588999 0.000272949
0.587511 0.0003736
0.586031 0.000254502
0.584558 0.000254301
0.583093 0.000288189
0.581635 0.00125117
0.580185 0.000344968
0.578742 0.000249221
0.577306 0.000232392
0.576162 0.000226393